<?xml version="1.0" encoding="UTF-8"?>

<Bundle xmlns="http://hl7.org/fhir">
  <id value="Example-Russian"/>
  <meta>
    <profile value="http://worldhealthorganization.github.io/ddcc/StructureDefinition/DDCCVSDocument"/>
  </meta>
  <identifier>
    <system value="urn:EXAMPLE-who-:ddcc:bundle:ids"/>
    <value value="9990123012301230123"/>
  </identifier>
  <type value="document"/>
  <timestamp value="2021-06-03T13:28:17-05:00"/>
  <link>
    <relation value="publication"/>
    <url value="urn:HCID:1234567890"/>
  </link>
  <entry>
    <fullUrl value="http://www.example.org/fhir/Composition/DDCC-Composition-Example-Russian"/>
    <resource>
      <Composition>
        <id value="DDCC-Composition-Example-Russian"/>
        <meta>
          <profile value="http://worldhealthorganization.github.io/ddcc/StructureDefinition/DDCCVSComposition"/>
        </meta>
        <text>
          <status value="generated"/><div xmlns="http://www.w3.org/1999/xhtml"><p><b>Generated Narrative</b></p><div style="display: inline-block; background-color: #d9e0e7; padding: 6px; margin: 4px; border: 1px solid #8da1b4; border-radius: 5px; line-height: 60%"><p style="margin-bottom: 0px">Resource "DDCC-Composition-Example-Russian" </p><p style="margin-bottom: 0px">Profile: <a href="StructureDefinition-DDCCVSComposition.html">DDCC:VS Composition</a></p></div><p><b>identifier</b>: id: 999123456123456123456 (OFFICIAL)</p><p><b>status</b>: final</p><p><b>type</b>: Immunization summary report <span style="background: LightGoldenRodYellow; margin: 4px; border: 1px solid khaki"> (<a href="https://loinc.org/">LOINC</a>#82593-5)</span></p><p><b>date</b>: 2020-05-06</p><p><b>author</b>: <a href="#Organization_DDCC-Organization-Russian">See above (Organization/DDCC-Organization-Russian)</a></p><p><b>title</b>: Digital Documentation of COVID-19 Certificate (DDCC)</p><h3>Attesters</h3><table class="grid"><tr><td>-</td><td><b>Mode</b></td><td><b>Party</b></td></tr><tr><td>*</td><td>official</td><td><a href="#Organization_DDCC-Organization-Russian">See above (Organization/DDCC-Organization-Russian)</a></td></tr></table></div>
        </text>
        <identifier>
          <use value="official"/>
          <system value="urn:EXAMPLE-who-:ddcc:composition:ids"/>
          <value value="999123456123456123456"/>
        </identifier>
        <status value="final"/>
        <type>
          <coding>
            <system value="http://loinc.org"/>
            <code value="82593-5"/>
          </coding>
        </type>
        <subject>
          <reference value="Patient/DDCC-Patient-Russian"/>
        </subject>
        <date value="2020-05-06"/>
        <author>
          <reference value="Organization/DDCC-Organization-Russian"/>
        </author>
        <title value="Digital Documentation of COVID-19 Certificate (DDCC)"/>
        <attester>
          <mode value="official"/>
          <party>
            <reference value="Organization/DDCC-Organization-Russian"/>
          </party>
        </attester>
        <section>
          <code>
            <coding>
              <system value="http://loinc.org"/>
              <code value="11369-6"/>
            </coding>
          </code>
          <focus>
            <reference value="Immunization/DDCC-Immunization-Russian"/>
          </focus>
          <entry>
            <reference value="Immunization/DDCC-Immunization-Russian"/>
          </entry>
          <entry>
            <reference value="ImmunizationRecommendation/DDCC-ImmunizationRecommendation-Russian"/>
          </entry>
        </section>
      </Composition>
    </resource>
  </entry>
  <entry>
    <fullUrl value="http://www.example.org/fhir/Patient/DDCC-Patient-Russian"/>
    <resource>
      <Patient>
        <id value="DDCC-Patient-Russian"/>
        <meta>
          <profile value="http://worldhealthorganization.github.io/ddcc/StructureDefinition/DDCCPatient"/>
        </meta>
        <text>
          <status value="generated"/><div xmlns="http://www.w3.org/1999/xhtml"><p><b>Generated Narrative</b></p><div style="display: inline-block; background-color: #d9e0e7; padding: 6px; margin: 4px; border: 1px solid #8da1b4; border-radius: 5px; line-height: 60%"><p style="margin-bottom: 0px">Resource "DDCC-Patient-Russian" </p><p style="margin-bottom: 0px">Profile: <a href="StructureDefinition-DDCCPatient.html">DDCC Patient</a></p></div><p><b>name</b>: Авл Агерий(OFFICIAL)</p><p><b>birthDate</b>: 2003-03-03</p></div>
        </text>
        <name>
          <use value="official"/>
          <text value="Авл Агерий"/>
        </name>
        <birthDate value="2003-03-03"/>
      </Patient>
    </resource>
  </entry>
  <entry>
    <fullUrl value="http://www.example.org/fhir/Organization/DDCC-Organization-Russian"/>
    <resource>
      <Organization>
        <id value="DDCC-Organization-Russian"/>
        <meta>
          <profile value="http://worldhealthorganization.github.io/ddcc/StructureDefinition/DDCCOrganization"/>
        </meta>
        <text>
          <status value="generated"/><div xmlns="http://www.w3.org/1999/xhtml"><p><b>Generated Narrative</b></p><div style="display: inline-block; background-color: #d9e0e7; padding: 6px; margin: 4px; border: 1px solid #8da1b4; border-radius: 5px; line-height: 60%"><p style="margin-bottom: 0px">Resource "DDCC-Organization-Russian" </p><p style="margin-bottom: 0px">Profile: <a href="StructureDefinition-DDCCOrganization.html">DDCC Organization</a></p></div><p><b>name</b>: Государственная больница</p></div>
        </text>
        <name value="Государственная больница"/>
      </Organization>
    </resource>
  </entry>
  <entry>
    <fullUrl value="http://www.example.org/fhir/Immunization/DDCC-Immunization-Russian"/>
    <resource>
      <Immunization>
        <id value="DDCC-Immunization-Russian"/>
        <meta>
          <profile value="http://worldhealthorganization.github.io/ddcc/StructureDefinition/DDCCImmunization"/>
        </meta>
        <text>
          <status value="extensions"/><div xmlns="http://www.w3.org/1999/xhtml"><p><b>Generated Narrative</b></p><div style="display: inline-block; background-color: #d9e0e7; padding: 6px; margin: 4px; border: 1px solid #8da1b4; border-radius: 5px; line-height: 60%"><p style="margin-bottom: 0px">Resource "DDCC-Immunization-Russian" </p><p style="margin-bottom: 0px">Profile: <a href="StructureDefinition-DDCCImmunization.html">DDCC Immunization</a></p></div><p><b>DDCC Event Brand for Immunization</b>: Test (Details: http://worldhealthorganization.github.io/ddcc/CodeSystem/DDCC-Example-Test-CodeSystem code TEST = 'Test', stated as 'null')</p><p><b>DDCC Country Of Event for Immunization</b>: RUS</p><p><b>DDCC Vaccine Market Authorization for Immunization</b>: Test (Details: http://worldhealthorganization.github.io/ddcc/CodeSystem/DDCC-Example-Test-CodeSystem code TEST = 'Test', stated as 'null')</p><p><b>DDCC Vaccine Valid From</b>: 2021-05-30</p><p><b>status</b>: completed</p><p><b>vaccineCode</b>: XM0CX4 <span style="background: LightGoldenRodYellow; margin: 4px; border: 1px solid khaki"> (mms#XM0CX4)</span></p><p><b>patient</b>: <a href="#Patient_DDCC-Patient-Russian">See above (Patient/DDCC-Patient-Russian)</a></p><p><b>occurrence</b>: 2021-05-06</p><p><b>location</b>: <span>: Сайт вакцинации</span></p><p><b>lotNumber</b>: 123</p><p><b>expirationDate</b>: 2021-06-30</p><h3>Performers</h3><table class="grid"><tr><td>-</td><td><b>Actor</b></td></tr><tr><td>*</td><td><a href="#Organization_DDCC-Organization-Russian">See above (Organization/DDCC-Organization-Russian)</a></td></tr></table><h3>ProtocolApplieds</h3><table class="grid"><tr><td>-</td><td><b>Authority</b></td><td><b>TargetDisease</b></td><td><b>DoseNumber[x]</b></td><td><b>SeriesDoses[x]</b></td></tr><tr><td>*</td><td><a href="#Organization_DDCC-Organization-Russian">See above (Organization/DDCC-Organization-Russian)</a></td><td>RA01 <span style="background: LightGoldenRodYellow; margin: 4px; border: 1px solid khaki"> (mms#RA01)</span></td><td>1</td><td>2</td></tr></table></div>
        </text>
        <extension url="http://worldhealthorganization.github.io/ddcc/StructureDefinition/DDCCEventBrand">
          <valueCoding>
            <system value="http://worldhealthorganization.github.io/ddcc/CodeSystem/DDCC-Example-Test-CodeSystem"/>
            <code value="TEST"/>
          </valueCoding>
        </extension>
        <extension url="http://worldhealthorganization.github.io/ddcc/StructureDefinition/DDCCCountryOfEvent">
          <valueCode value="RUS"/>
        </extension>
        <extension url="http://worldhealthorganization.github.io/ddcc/StructureDefinition/DDCCVaccineMarketAuthorization">
          <valueCoding>
            <system value="http://worldhealthorganization.github.io/ddcc/CodeSystem/DDCC-Example-Test-CodeSystem"/>
            <code value="TEST"/>
          </valueCoding>
        </extension>
        <extension url="http://worldhealthorganization.github.io/ddcc/StructureDefinition/DDCCVaccineValidFrom">
          <valueDate value="2021-05-30"/>
        </extension>
        <status value="completed"/>
        <vaccineCode>
          <coding>
            <system value="http://id.who.int/icd11/mms"/>
            <code value="XM0CX4"/>
          </coding>
        </vaccineCode>
        <patient>
          <reference value="Patient/DDCC-Patient-Russian"/>
        </patient>
        <occurrenceDateTime value="2021-05-06"/>
        <location>
          <display value="Сайт вакцинации"/>
        </location>
        <lotNumber value="123"/>
        <expirationDate value="2021-06-30"/>
        <performer>
          <actor>
            <reference value="Organization/DDCC-Organization-Russian"/>
          </actor>
        </performer>
        <protocolApplied>
          <authority>
            <reference value="Organization/DDCC-Organization-Russian"/>
          </authority>
          <targetDisease>
            <coding>
              <system value="http://id.who.int/icd11/mms"/>
              <code value="RA01"/>
            </coding>
          </targetDisease>
          <doseNumberPositiveInt value="1"/>
          <seriesDosesPositiveInt value="2"/>
        </protocolApplied>
      </Immunization>
    </resource>
  </entry>
  <entry>
    <fullUrl value="http://www.example.org/fhir/ImmunizationRecommendation/DDCC-ImmunizationRecommendation-Russian"/>
    <resource>
      <ImmunizationRecommendation>
        <id value="DDCC-ImmunizationRecommendation-Russian"/>
        <meta>
          <profile value="http://worldhealthorganization.github.io/ddcc/StructureDefinition/DDCCImmunizationRecommendation"/>
        </meta>
        <text>
          <status value="generated"/><div xmlns="http://www.w3.org/1999/xhtml"><p><b>Generated Narrative</b></p><div style="display: inline-block; background-color: #d9e0e7; padding: 6px; margin: 4px; border: 1px solid #8da1b4; border-radius: 5px; line-height: 60%"><p style="margin-bottom: 0px">Resource "DDCC-ImmunizationRecommendation-Russian" </p><p style="margin-bottom: 0px">Profile: <a href="StructureDefinition-DDCCImmunizationRecommendation.html">DDCC Immunization Recommendation</a></p></div><p><b>patient</b>: <a href="#Patient_DDCC-Patient-Russian">See above (Patient/DDCC-Patient-Russian)</a></p><p><b>date</b>: 2021-05-06</p><blockquote><p><b>recommendation</b></p><p><b>vaccineCode</b>: XM0CX4 <span style="background: LightGoldenRodYellow; margin: 4px; border: 1px solid khaki"> (mms#XM0CX4)</span></p><p><b>forecastStatus</b>: Due <span style="background: LightGoldenRodYellow; margin: 4px; border: 1px solid khaki"> (<a href="http://terminology.hl7.org/3.0.0/CodeSystem-immunization-recommendation-status.html">Immunization Recommendation Status Codes</a>#due)</span></p><h3>DateCriterions</h3><table class="grid"><tr><td>-</td><td><b>Code</b></td><td><b>Value</b></td></tr><tr><td>*</td><td>Date vaccine due <span style="background: LightGoldenRodYellow; margin: 4px; border: 1px solid khaki"> (<a href="https://loinc.org/">LOINC</a>#30980-7)</span></td><td>2021-05-20</td></tr></table><p><b>supportingImmunization</b>: <a href="#Immunization_DDCC-Immunization-Russian">See above (Immunization/DDCC-Immunization-Russian)</a></p></blockquote></div>
        </text>
        <patient>
          <reference value="Patient/DDCC-Patient-Russian"/>
        </patient>
        <date value="2021-05-06"/>
        <recommendation>
          <vaccineCode>
            <coding>
              <system value="http://id.who.int/icd11/mms"/>
              <code value="XM0CX4"/>
            </coding>
          </vaccineCode>
          <forecastStatus>
            <coding>
              <system value="http://terminology.hl7.org/CodeSystem/immunization-recommendation-status"/>
              <code value="due"/>
            </coding>
          </forecastStatus>
          <dateCriterion>
            <code>
              <coding>
                <system value="http://loinc.org"/>
                <code value="30980-7"/>
              </coding>
            </code>
            <value value="2021-05-20"/>
          </dateCriterion>
          <supportingImmunization>
            <reference value="Immunization/DDCC-Immunization-Russian"/>
          </supportingImmunization>
        </recommendation>
      </ImmunizationRecommendation>
    </resource>
  </entry>
</Bundle>