{
  "resourceType" : "Bundle",
  "id" : "ExampleFrench",
  "meta" : {
    "profile" : ["http://smart.who.int/ddcc/StructureDefinition/DDCCVSDocument"]
  },
  "identifier" : {
    "system" : "urn:EXAMPLE-who-:ddcc:bundle:ids",
    "value" : "9990123012301230123"
  },
  "type" : "document",
  "timestamp" : "2021-06-03T13:28:17-05:00",
  "link" : [{
    "relation" : "publication",
    "url" : "urn:HCID:1234567890"
  }],
  "entry" : [{
    "fullUrl" : "http://www.example.org/fhir/Composition/DDCCCompositionExampleFrench",
    "resource" : {
      "resourceType" : "Composition",
      "id" : "DDCCCompositionExampleFrench",
      "meta" : {
        "profile" : ["http://smart.who.int/ddcc/StructureDefinition/DDCCVSComposition"]
      },
      "text" : {
        "status" : "generated",
        "div" : "<div xmlns=\"http://www.w3.org/1999/xhtml\"><a name=\"Composition_DDCCCompositionExampleFrench\"> </a><p class=\"res-header-id\"><b>Generated Narrative: Composition DDCCCompositionExampleFrench</b></p><a name=\"DDCCCompositionExampleFrench\"> </a><a name=\"hcDDCCCompositionExampleFrench\"> </a><a name=\"DDCCCompositionExampleFrench-en-US\"> </a><p><b>identifier</b>: <code>urn:EXAMPLE-who-:ddcc:composition:ids</code>/999123456123456123456\u00a0(use:\u00a0official,\u00a0)</p><p><b>status</b>: Final</p><p><b>type</b>: <span title=\"Codes:{http://loinc.org 82593-5}\">Immunization summary report</span></p><p><b>date</b>: 2020-05-06</p><p><b>author</b>: <a href=\"Organization-DDCCOrganizationFrench.html\">Organization Hôpital du gouvernement</a></p><p><b>title</b>: Digital Documentation of COVID-19 Certificate (DDCC)</p><h3>Attesters</h3><table class=\"grid\"><tr><td style=\"display: none\">-</td><td><b>Mode</b></td><td><b>Party</b></td></tr><tr><td style=\"display: none\">*</td><td>Official</td><td><a href=\"Organization-DDCCOrganizationFrench.html\">Organization Hôpital du gouvernement</a></td></tr></table></div>"
      },
      "identifier" : {
        "use" : "official",
        "system" : "urn:EXAMPLE-who-:ddcc:composition:ids",
        "value" : "999123456123456123456"
      },
      "status" : "final",
      "type" : {
        "coding" : [{
          "system" : "http://loinc.org",
          "code" : "82593-5"
        }]
      },
      "subject" : {
        "reference" : "Patient/DDCCPatientFrench"
      },
      "date" : "2020-05-06",
      "author" : [{
        "reference" : "Organization/DDCCOrganizationFrench"
      }],
      "title" : "Digital Documentation of COVID-19 Certificate (DDCC)",
      "attester" : [{
        "mode" : "official",
        "party" : {
          "reference" : "Organization/DDCCOrganizationFrench"
        }
      }],
      "section" : [{
        "code" : {
          "coding" : [{
            "system" : "http://loinc.org",
            "code" : "11369-6"
          }]
        },
        "focus" : {
          "reference" : "Immunization/DDCCImmunizationFrench"
        },
        "entry" : [{
          "reference" : "Immunization/DDCCImmunizationFrench"
        },
        {
          "reference" : "ImmunizationRecommendation/DDCCImmunizationRecommendationFrench"
        }]
      }]
    }
  },
  {
    "fullUrl" : "http://www.example.org/fhir/Patient/DDCCPatientFrench",
    "resource" : {
      "resourceType" : "Patient",
      "id" : "DDCCPatientFrench",
      "meta" : {
        "profile" : ["http://smart.who.int/ddcc/StructureDefinition/DDCCPatient"]
      },
      "text" : {
        "status" : "generated",
        "div" : "<div xmlns=\"http://www.w3.org/1999/xhtml\"><a name=\"Patient_DDCCPatientFrench\"> </a><p class=\"res-header-id\"><b>Generated Narrative: Patient DDCCPatientFrench</b></p><a name=\"DDCCPatientFrench\"> </a><a name=\"hcDDCCPatientFrench\"> </a><a name=\"DDCCPatientFrench-en-US\"> </a><p style=\"border: 1px #661aff solid; background-color: #e6e6ff; padding: 10px;\">Aulus Agerius(official) (no stated gender), DoB: 2003-03-03</p><hr/></div>"
      },
      "name" : [{
        "use" : "official",
        "text" : "Aulus Agerius"
      }],
      "birthDate" : "2003-03-03"
    }
  },
  {
    "fullUrl" : "http://www.example.org/fhir/Organization/DDCCOrganizationFrench",
    "resource" : {
      "resourceType" : "Organization",
      "id" : "DDCCOrganizationFrench",
      "meta" : {
        "profile" : ["http://smart.who.int/ddcc/StructureDefinition/DDCCOrganization"]
      },
      "text" : {
        "status" : "generated",
        "div" : "<div xmlns=\"http://www.w3.org/1999/xhtml\"><a name=\"Organization_DDCCOrganizationFrench\"> </a><p class=\"res-header-id\"><b>Generated Narrative: Organization DDCCOrganizationFrench</b></p><a name=\"DDCCOrganizationFrench\"> </a><a name=\"hcDDCCOrganizationFrench\"> </a><a name=\"DDCCOrganizationFrench-en-US\"> </a><p><b>name</b>: Hôpital du gouvernement</p></div>"
      },
      "name" : "Hôpital du gouvernement"
    }
  },
  {
    "fullUrl" : "http://www.example.org/fhir/Immunization/DDCCImmunizationFrench",
    "resource" : {
      "resourceType" : "Immunization",
      "id" : "DDCCImmunizationFrench",
      "meta" : {
        "profile" : ["http://smart.who.int/ddcc/StructureDefinition/DDCCImmunization"]
      },
      "text" : {
        "status" : "extensions",
        "div" : "<div xmlns=\"http://www.w3.org/1999/xhtml\"><a name=\"Immunization_DDCCImmunizationFrench\"> </a><p class=\"res-header-id\"><b>Generated Narrative: Immunization DDCCImmunizationFrench</b></p><a name=\"DDCCImmunizationFrench\"> </a><a name=\"hcDDCCImmunizationFrench\"> </a><a name=\"DDCCImmunizationFrench-en-US\"> </a><p><b>DDCC Event Brand for Immunization</b>: mms XM8NQ0: XM8NQ0</p><p><b>DDCC Country Of Event for Immunization</b>: FRA</p><p><b>DDCC Vaccine Market Authorization for Immunization</b>: <a href=\"CodeSystem-DDCCExampleTestCodeSystem.html#DDCCExampleTestCodeSystem-TEST\">DDCC Codes for examples</a> TEST: Test</p><p><b>DDCC Vaccine Valid From</b>: 2021-05-30</p><p><b>status</b>: Completed</p><p><b>vaccineCode</b>: <span title=\"Codes:{http://id.who.int/icd11/mms XM0GQ8}\">XM0GQ8</span></p><p><b>patient</b>: <a href=\"Patient-DDCCPatientFrench.html\">Aulus Agerius(official) (no stated gender), DoB: 2003-03-03</a></p><p><b>occurrence</b>: 2021-05-06</p><p><b>location</b>: Site de vaccination</p><p><b>lotNumber</b>: 123</p><p><b>expirationDate</b>: 2021-06-30</p><h3>Performers</h3><table class=\"grid\"><tr><td style=\"display: none\">-</td><td><b>Actor</b></td></tr><tr><td style=\"display: none\">*</td><td><a href=\"Organization-DDCCOrganizationFrench.html\">Organization Hôpital du gouvernement</a></td></tr></table><h3>ProtocolApplieds</h3><table class=\"grid\"><tr><td style=\"display: none\">-</td><td><b>Authority</b></td><td><b>TargetDisease</b></td><td><b>DoseNumber[x]</b></td><td><b>SeriesDoses[x]</b></td></tr><tr><td style=\"display: none\">*</td><td><a href=\"Organization-DDCCOrganizationFrench.html\">Organization Hôpital du gouvernement</a></td><td><span title=\"Codes:{http://id.who.int/icd11/mms RA01}\">RA01</span></td><td>1</td><td>2</td></tr></table></div>"
      },
      "extension" : [{
        "url" : "http://smart.who.int/ddcc/StructureDefinition/DDCCEventBrand",
        "valueCoding" : {
          "system" : "http://id.who.int/icd11/mms",
          "code" : "XM8NQ0"
        }
      },
      {
        "url" : "http://smart.who.int/ddcc/StructureDefinition/DDCCCountryOfEvent",
        "valueCode" : "FRA"
      },
      {
        "url" : "http://smart.who.int/ddcc/StructureDefinition/DDCCVaccineMarketAuthorization",
        "valueCoding" : {
          "system" : "http://smart.who.int/ddcc/CodeSystem/DDCCExampleTestCodeSystem",
          "code" : "TEST"
        }
      },
      {
        "url" : "http://smart.who.int/ddcc/StructureDefinition/DDCCVaccineValidFrom",
        "valueDate" : "2021-05-30"
      }],
      "status" : "completed",
      "vaccineCode" : {
        "coding" : [{
          "system" : "http://id.who.int/icd11/mms",
          "code" : "XM0GQ8"
        }]
      },
      "patient" : {
        "reference" : "Patient/DDCCPatientFrench"
      },
      "occurrenceDateTime" : "2021-05-06",
      "location" : {
        "display" : "Site de vaccination"
      },
      "lotNumber" : "123",
      "expirationDate" : "2021-06-30",
      "performer" : [{
        "actor" : {
          "reference" : "Organization/DDCCOrganizationFrench"
        }
      }],
      "protocolApplied" : [{
        "authority" : {
          "reference" : "Organization/DDCCOrganizationFrench"
        },
        "targetDisease" : [{
          "coding" : [{
            "system" : "http://id.who.int/icd11/mms",
            "code" : "RA01"
          }]
        }],
        "doseNumberPositiveInt" : 1,
        "seriesDosesPositiveInt" : 2
      }]
    }
  },
  {
    "fullUrl" : "http://www.example.org/fhir/ImmunizationRecommendation/DDCCImmunizationRecommendationFrench",
    "resource" : {
      "resourceType" : "ImmunizationRecommendation",
      "id" : "DDCCImmunizationRecommendationFrench",
      "meta" : {
        "profile" : ["http://smart.who.int/ddcc/StructureDefinition/DDCCImmunizationRecommendation"]
      },
      "text" : {
        "status" : "generated",
        "div" : "<div xmlns=\"http://www.w3.org/1999/xhtml\"><a name=\"ImmunizationRecommendation_DDCCImmunizationRecommendationFrench\"> </a><p class=\"res-header-id\"><b>Generated Narrative: ImmunizationRecommendation DDCCImmunizationRecommendationFrench</b></p><a name=\"DDCCImmunizationRecommendationFrench\"> </a><a name=\"hcDDCCImmunizationRecommendationFrench\"> </a><a name=\"DDCCImmunizationRecommendationFrench-en-US\"> </a><p><b>patient</b>: <a href=\"Patient-DDCCPatientFrench.html\">Aulus Agerius(official) (no stated gender), DoB: 2003-03-03</a></p><p><b>date</b>: 2021-05-06</p><blockquote><p><b>recommendation</b></p><p><b>vaccineCode</b>: <span title=\"Codes:{http://id.who.int/icd11/mms XM0GQ8}\">XM0GQ8</span></p><p><b>forecastStatus</b>: <span title=\"Codes:{http://terminology.hl7.org/CodeSystem/immunization-recommendation-status due}\">Due</span></p><h3>DateCriterions</h3><table class=\"grid\"><tr><td style=\"display: none\">-</td><td><b>Code</b></td><td><b>Value</b></td></tr><tr><td style=\"display: none\">*</td><td><span title=\"Codes:{http://loinc.org 30980-7}\">Date vaccine due</span></td><td>2021-05-20</td></tr></table><p><b>supportingImmunization</b>: <a href=\"Immunization-DDCCImmunizationFrench.html\">Immunization: extension = XM8NQ0 (mms#XM8NQ0),FRA,Test (DDCC Codes for examples#TEST),2021-05-30; status = completed; vaccineCode = XM0GQ8; occurrence[x] = 2021-05-06; lotNumber = 123; expirationDate = 2021-06-30</a></p></blockquote></div>"
      },
      "patient" : {
        "reference" : "Patient/DDCCPatientFrench"
      },
      "date" : "2021-05-06",
      "recommendation" : [{
        "vaccineCode" : [{
          "coding" : [{
            "system" : "http://id.who.int/icd11/mms",
            "code" : "XM0GQ8"
          }]
        }],
        "forecastStatus" : {
          "coding" : [{
            "system" : "http://terminology.hl7.org/CodeSystem/immunization-recommendation-status",
            "code" : "due"
          }]
        },
        "dateCriterion" : [{
          "code" : {
            "coding" : [{
              "system" : "http://loinc.org",
              "code" : "30980-7"
            }]
          },
          "value" : "2021-05-20"
        }],
        "supportingImmunization" : [{
          "reference" : "Immunization/DDCCImmunizationFrench"
        }]
      }]
    }
  }]
}