{
  "resourceType": "Bundle",
  "id": "Example-Russian",
  "meta": {
    "profile": [
      "http://worldhealthorganization.github.io/ddcc/StructureDefinition/DDCCVSDocument"
    ]
  },
  "identifier": {
    "system": "urn:EXAMPLE-who-:ddcc:bundle:ids",
    "value": "9990123012301230123"
  },
  "type": "document",
  "timestamp": "2021-06-03T13:28:17-05:00",
  "link": [
    {
      "relation": "publication",
      "url": "urn:HCID:1234567890"
    }
  ],
  "entry": [
    {
      "fullUrl": "http://www.example.org/fhir/Composition/DDCC-Composition-Example-Russian",
      "resource": {
        "resourceType": "Composition",
        "id": "DDCC-Composition-Example-Russian",
        "meta": {
          "profile": [
            "http://worldhealthorganization.github.io/ddcc/StructureDefinition/DDCCVSComposition"
          ]
        },
        "text": {
          "status": "generated",
          "div": "<div xmlns=\"http://www.w3.org/1999/xhtml\"><p><b>Generated Narrative: Composition</b><a name=\"DDCC-Composition-Example-Russian\"> </a></p><div style=\"display: inline-block; background-color: #d9e0e7; padding: 6px; margin: 4px; border: 1px solid #8da1b4; border-radius: 5px; line-height: 60%\"><p style=\"margin-bottom: 0px\">Resource Composition &quot;DDCC-Composition-Example-Russian&quot; </p><p style=\"margin-bottom: 0px\">Profile: <a href=\"StructureDefinition-DDCCVSComposition.html\">DDCC:VS Composition</a></p></div><p><b>identifier</b>: id: 999123456123456123456 (use: OFFICIAL)</p><p><b>status</b>: final</p><p><b>type</b>: Immunization summary report <span style=\"background: LightGoldenRodYellow; margin: 4px; border: 1px solid khaki\"> (<a href=\"https://loinc.org/\">LOINC</a>#82593-5)</span></p><p><b>date</b>: 2020-05-06</p><p><b>author</b>: <a href=\"#Organization_DDCC-Organization-Russian\">See above (Organization/DDCC-Organization-Russian)</a></p><p><b>title</b>: Digital Documentation of COVID-19 Certificate (DDCC)</p><h3>Attesters</h3><table class=\"grid\"><tr><td>-</td><td><b>Mode</b></td><td><b>Party</b></td></tr><tr><td>*</td><td>official</td><td><a href=\"#Organization_DDCC-Organization-Russian\">See above (Organization/DDCC-Organization-Russian)</a></td></tr></table></div>"
        },
        "identifier": {
          "use": "official",
          "system": "urn:EXAMPLE-who-:ddcc:composition:ids",
          "value": "999123456123456123456"
        },
        "status": "final",
        "type": {
          "coding": [
            {
              "system": "http://loinc.org",
              "code": "82593-5"
            }
          ]
        },
        "subject": {
          "reference": "Patient/DDCC-Patient-Russian"
        },
        "date": "2020-05-06",
        "author": [
          {
            "reference": "Organization/DDCC-Organization-Russian"
          }
        ],
        "title": "Digital Documentation of COVID-19 Certificate (DDCC)",
        "attester": [
          {
            "mode": "official",
            "party": {
              "reference": "Organization/DDCC-Organization-Russian"
            }
          }
        ],
        "section": [
          {
            "code": {
              "coding": [
                {
                  "system": "http://loinc.org",
                  "code": "11369-6"
                }
              ]
            },
            "focus": {
              "reference": "Immunization/DDCC-Immunization-Russian"
            },
            "entry": [
              {
                "reference": "Immunization/DDCC-Immunization-Russian"
              },
              {
                "reference": "ImmunizationRecommendation/DDCC-ImmunizationRecommendation-Russian"
              }
            ]
          }
        ]
      }
    },
    {
      "fullUrl": "http://www.example.org/fhir/Patient/DDCC-Patient-Russian",
      "resource": {
        "resourceType": "Patient",
        "id": "DDCC-Patient-Russian",
        "meta": {
          "profile": [
            "http://worldhealthorganization.github.io/ddcc/StructureDefinition/DDCCPatient"
          ]
        },
        "text": {
          "status": "generated",
          "div": "<div xmlns=\"http://www.w3.org/1999/xhtml\"><p><b>Generated Narrative: Patient</b><a name=\"DDCC-Patient-Russian\"> </a></p><div style=\"display: inline-block; background-color: #d9e0e7; padding: 6px; margin: 4px; border: 1px solid #8da1b4; border-radius: 5px; line-height: 60%\"><p style=\"margin-bottom: 0px\">Resource Patient &quot;DDCC-Patient-Russian&quot; </p><p style=\"margin-bottom: 0px\">Profile: <a href=\"StructureDefinition-DDCCPatient.html\">DDCC Patient</a></p></div><p><b>name</b>: Авл Агерий(OFFICIAL)</p><p><b>birthDate</b>: 2003-03-03</p></div>"
        },
        "name": [
          {
            "use": "official",
            "text": "Авл Агерий"
          }
        ],
        "birthDate": "2003-03-03"
      }
    },
    {
      "fullUrl": "http://www.example.org/fhir/Organization/DDCC-Organization-Russian",
      "resource": {
        "resourceType": "Organization",
        "id": "DDCC-Organization-Russian",
        "meta": {
          "profile": [
            "http://worldhealthorganization.github.io/ddcc/StructureDefinition/DDCCOrganization"
          ]
        },
        "text": {
          "status": "generated",
          "div": "<div xmlns=\"http://www.w3.org/1999/xhtml\"><p><b>Generated Narrative: Organization</b><a name=\"DDCC-Organization-Russian\"> </a></p><div style=\"display: inline-block; background-color: #d9e0e7; padding: 6px; margin: 4px; border: 1px solid #8da1b4; border-radius: 5px; line-height: 60%\"><p style=\"margin-bottom: 0px\">Resource Organization &quot;DDCC-Organization-Russian&quot; </p><p style=\"margin-bottom: 0px\">Profile: <a href=\"StructureDefinition-DDCCOrganization.html\">DDCC Organization</a></p></div><p><b>name</b>: Государственная больница</p></div>"
        },
        "name": "Государственная больница"
      }
    },
    {
      "fullUrl": "http://www.example.org/fhir/Immunization/DDCC-Immunization-Russian",
      "resource": {
        "resourceType": "Immunization",
        "id": "DDCC-Immunization-Russian",
        "meta": {
          "profile": [
            "http://worldhealthorganization.github.io/ddcc/StructureDefinition/DDCCImmunization"
          ]
        },
        "text": {
          "status": "extensions",
          "div": "<div xmlns=\"http://www.w3.org/1999/xhtml\"><p><b>Generated Narrative: Immunization</b><a name=\"DDCC-Immunization-Russian\"> </a></p><div style=\"display: inline-block; background-color: #d9e0e7; padding: 6px; margin: 4px; border: 1px solid #8da1b4; border-radius: 5px; line-height: 60%\"><p style=\"margin-bottom: 0px\">Resource Immunization &quot;DDCC-Immunization-Russian&quot; </p><p style=\"margin-bottom: 0px\">Profile: <a href=\"StructureDefinition-DDCCImmunization.html\">DDCC Immunization</a></p></div><p><b>DDCC Event Brand for Immunization</b>: Sputnik-Light (Details: http://id.who.int/icd11/mms code XM5QM6 = 'Sputnik-Light', stated as 'null')</p><p><b>DDCC Country Of Event for Immunization</b>: RUS</p><p><b>DDCC Vaccine Market Authorization for Immunization</b>: Test (Details: http://worldhealthorganization.github.io/ddcc/CodeSystem/DDCC-Example-Test-CodeSystem code TEST = 'Test', stated as 'null')</p><p><b>DDCC Vaccine Valid From</b>: 2021-05-30</p><p><b>status</b>: completed</p><p><b>vaccineCode</b>: COVID-19 vaccine, non-replicating viral vector <span style=\"background: LightGoldenRodYellow; margin: 4px; border: 1px solid khaki\"> (<a href=\"CodeSystem-DDCC-ICD11-CodeSystem.html\">DDCC Codes for ICD11</a>#XM9QW8)</span></p><p><b>patient</b>: <a href=\"#Patient_DDCC-Patient-Russian\">See above (Patient/DDCC-Patient-Russian)</a></p><p><b>occurrence</b>: 2021-05-06</p><p><b>location</b>: <span>: Сайт вакцинации</span></p><p><b>lotNumber</b>: 123</p><p><b>expirationDate</b>: 2021-06-30</p><h3>Performers</h3><table class=\"grid\"><tr><td>-</td><td><b>Actor</b></td></tr><tr><td>*</td><td><a href=\"#Organization_DDCC-Organization-Russian\">See above (Organization/DDCC-Organization-Russian)</a></td></tr></table><h3>ProtocolApplieds</h3><table class=\"grid\"><tr><td>-</td><td><b>Authority</b></td><td><b>TargetDisease</b></td><td><b>DoseNumber[x]</b></td><td><b>SeriesDoses[x]</b></td></tr><tr><td>*</td><td><a href=\"#Organization_DDCC-Organization-Russian\">See above (Organization/DDCC-Organization-Russian)</a></td><td>COVID-19 Disease <span style=\"background: LightGoldenRodYellow; margin: 4px; border: 1px solid khaki\"> (<a href=\"CodeSystem-DDCC-ICD11-CodeSystem.html\">DDCC Codes for ICD11</a>#RA01)</span></td><td>1</td><td>2</td></tr></table></div>"
        },
        "extension": [
          {
            "url": "http://worldhealthorganization.github.io/ddcc/StructureDefinition/DDCCEventBrand",
            "valueCoding": {
              "system": "http://id.who.int/icd11/mms",
              "code": "XM5QM6"
            }
          },
          {
            "url": "http://worldhealthorganization.github.io/ddcc/StructureDefinition/DDCCCountryOfEvent",
            "valueCode": "RUS"
          },
          {
            "url": "http://worldhealthorganization.github.io/ddcc/StructureDefinition/DDCCVaccineMarketAuthorization",
            "valueCoding": {
              "system": "http://worldhealthorganization.github.io/ddcc/CodeSystem/DDCC-Example-Test-CodeSystem",
              "code": "TEST"
            }
          },
          {
            "url": "http://worldhealthorganization.github.io/ddcc/StructureDefinition/DDCCVaccineValidFrom",
            "valueDate": "2021-05-30"
          }
        ],
        "status": "completed",
        "vaccineCode": {
          "coding": [
            {
              "system": "http://id.who.int/icd11/mms",
              "code": "XM9QW8"
            }
          ]
        },
        "patient": {
          "reference": "Patient/DDCC-Patient-Russian"
        },
        "occurrenceDateTime": "2021-05-06",
        "location": {
          "display": "Сайт вакцинации"
        },
        "lotNumber": "123",
        "expirationDate": "2021-06-30",
        "performer": [
          {
            "actor": {
              "reference": "Organization/DDCC-Organization-Russian"
            }
          }
        ],
        "protocolApplied": [
          {
            "authority": {
              "reference": "Organization/DDCC-Organization-Russian"
            },
            "targetDisease": [
              {
                "coding": [
                  {
                    "system": "http://id.who.int/icd11/mms",
                    "code": "RA01"
                  }
                ]
              }
            ],
            "doseNumberPositiveInt": 1,
            "seriesDosesPositiveInt": 2
          }
        ]
      }
    },
    {
      "fullUrl": "http://www.example.org/fhir/ImmunizationRecommendation/DDCC-ImmunizationRecommendation-Russian",
      "resource": {
        "resourceType": "ImmunizationRecommendation",
        "id": "DDCC-ImmunizationRecommendation-Russian",
        "meta": {
          "profile": [
            "http://worldhealthorganization.github.io/ddcc/StructureDefinition/DDCCImmunizationRecommendation"
          ]
        },
        "text": {
          "status": "generated",
          "div": "<div xmlns=\"http://www.w3.org/1999/xhtml\"><p><b>Generated Narrative: ImmunizationRecommendation</b><a name=\"DDCC-ImmunizationRecommendation-Russian\"> </a></p><div style=\"display: inline-block; background-color: #d9e0e7; padding: 6px; margin: 4px; border: 1px solid #8da1b4; border-radius: 5px; line-height: 60%\"><p style=\"margin-bottom: 0px\">Resource ImmunizationRecommendation &quot;DDCC-ImmunizationRecommendation-Russian&quot; </p><p style=\"margin-bottom: 0px\">Profile: <a href=\"StructureDefinition-DDCCImmunizationRecommendation.html\">DDCC Immunization Recommendation</a></p></div><p><b>patient</b>: <a href=\"#Patient_DDCC-Patient-Russian\">See above (Patient/DDCC-Patient-Russian)</a></p><p><b>date</b>: 2021-05-06</p><blockquote><p><b>recommendation</b></p><p><b>vaccineCode</b>: COVID-19 vaccine, non-replicating viral vector <span style=\"background: LightGoldenRodYellow; margin: 4px; border: 1px solid khaki\"> (<a href=\"CodeSystem-DDCC-ICD11-CodeSystem.html\">DDCC Codes for ICD11</a>#XM9QW8)</span></p><p><b>forecastStatus</b>: Due <span style=\"background: LightGoldenRodYellow; margin: 4px; border: 1px solid khaki\"> (<a href=\"http://terminology.hl7.org/4.0.0/CodeSystem-immunization-recommendation-status.html\">Immunization Recommendation Status Codes</a>#due)</span></p><h3>DateCriterions</h3><table class=\"grid\"><tr><td>-</td><td><b>Code</b></td><td><b>Value</b></td></tr><tr><td>*</td><td>Date vaccine due <span style=\"background: LightGoldenRodYellow; margin: 4px; border: 1px solid khaki\"> (<a href=\"https://loinc.org/\">LOINC</a>#30980-7)</span></td><td>2021-05-20</td></tr></table><p><b>supportingImmunization</b>: <a href=\"#Immunization_DDCC-Immunization-Russian\">See above (Immunization/DDCC-Immunization-Russian)</a></p></blockquote></div>"
        },
        "patient": {
          "reference": "Patient/DDCC-Patient-Russian"
        },
        "date": "2021-05-06",
        "recommendation": [
          {
            "vaccineCode": [
              {
                "coding": [
                  {
                    "system": "http://id.who.int/icd11/mms",
                    "code": "XM9QW8"
                  }
                ]
              }
            ],
            "forecastStatus": {
              "coding": [
                {
                  "system": "http://terminology.hl7.org/CodeSystem/immunization-recommendation-status",
                  "code": "due"
                }
              ]
            },
            "dateCriterion": [
              {
                "code": {
                  "coding": [
                    {
                      "system": "http://loinc.org",
                      "code": "30980-7"
                    }
                  ]
                },
                "value": "2021-05-20"
              }
            ],
            "supportingImmunization": [
              {
                "reference": "Immunization/DDCC-Immunization-Russian"
              }
            ]
          }
        ]
      }
    }
  ]
}