{
  "resourceType" : "Bundle",
  "id" : "Example-English",
  "meta" : {
    "profile" : ["http://smart.who.int/ddcc/StructureDefinition/DDCCVSDocument"]
  },
  "identifier" : {
    "system" : "urn:EXAMPLE-who-:ddcc:bundle:ids",
    "value" : "9990123012301230123"
  },
  "type" : "document",
  "timestamp" : "2021-06-03T13:28:17-05:00",
  "link" : [{
    "relation" : "publication",
    "url" : "urn:HCID:1234567890"
  }],
  "entry" : [{
    "fullUrl" : "http://www.example.org/fhir/Composition/DDCC-Composition-Example-English",
    "resource" : {
      "resourceType" : "Composition",
      "id" : "DDCC-Composition-Example-English",
      "meta" : {
        "profile" : ["http://smart.who.int/ddcc/StructureDefinition/DDCCVSComposition"]
      },
      "text" : {
        "status" : "generated",
        "div" : "<div xmlns=\"http://www.w3.org/1999/xhtml\"><p><b>Generated Narrative: Composition</b><a name=\"DDCC-Composition-Example-English\"> </a></p><div style=\"display: inline-block; background-color: #d9e0e7; padding: 6px; margin: 4px; border: 1px solid #8da1b4; border-radius: 5px; line-height: 60%\"><p style=\"margin-bottom: 0px\">Resource Composition &quot;DDCC-Composition-Example-English&quot; </p><p style=\"margin-bottom: 0px\">Profile: <a href=\"StructureDefinition-DDCCVSComposition.html\">DDCC:VS Composition</a></p></div><p><b>identifier</b>: id:\u00a0999123456123456123456\u00a0(use:\u00a0OFFICIAL)</p><p><b>status</b>: final</p><p><b>type</b>: 82593-5 <span style=\"background: LightGoldenRodYellow; margin: 4px; border: 1px solid khaki\"> (<a href=\"https://loinc.org/\">LOINC</a>#82593-5)</span></p><p><b>date</b>: 2020-05-06</p><p><b>author</b>: <a href=\"#Organization_DDCC-Organization-English\">See above (Organization/DDCC-Organization-English)</a></p><p><b>title</b>: Digital Documentation of COVID-19 Certificate (DDCC)</p><h3>Attesters</h3><table class=\"grid\"><tr><td style=\"display: none\">-</td><td><b>Mode</b></td><td><b>Party</b></td></tr><tr><td style=\"display: none\">*</td><td>official</td><td><a href=\"#Organization_DDCC-Organization-English\">See above (Organization/DDCC-Organization-English)</a></td></tr></table></div>"
      },
      "identifier" : {
        "use" : "official",
        "system" : "urn:EXAMPLE-who-:ddcc:composition:ids",
        "value" : "999123456123456123456"
      },
      "status" : "final",
      "type" : {
        "coding" : [{
          "system" : "http://loinc.org",
          "code" : "82593-5"
        }]
      },
      "subject" : {
        "reference" : "Patient/DDCC-Patient-English"
      },
      "date" : "2020-05-06",
      "author" : [{
        "reference" : "Organization/DDCC-Organization-English"
      }],
      "title" : "Digital Documentation of COVID-19 Certificate (DDCC)",
      "attester" : [{
        "mode" : "official",
        "party" : {
          "reference" : "Organization/DDCC-Organization-English"
        }
      }],
      "section" : [{
        "code" : {
          "coding" : [{
            "system" : "http://loinc.org",
            "code" : "11369-6"
          }]
        },
        "focus" : {
          "reference" : "Immunization/DDCC-Immunization-English"
        },
        "entry" : [{
          "reference" : "Immunization/DDCC-Immunization-English"
        },
        {
          "reference" : "ImmunizationRecommendation/DDCC-ImmunizationRecommendation-English"
        }]
      }]
    }
  },
  {
    "fullUrl" : "http://www.example.org/fhir/Patient/DDCC-Patient-English",
    "resource" : {
      "resourceType" : "Patient",
      "id" : "DDCC-Patient-English",
      "meta" : {
        "profile" : ["http://smart.who.int/ddcc/StructureDefinition/DDCCPatient"]
      },
      "text" : {
        "status" : "generated",
        "div" : "<div xmlns=\"http://www.w3.org/1999/xhtml\"><p><b>Generated Narrative: Patient</b><a name=\"DDCC-Patient-English\"> </a></p><div style=\"display: inline-block; background-color: #d9e0e7; padding: 6px; margin: 4px; border: 1px solid #8da1b4; border-radius: 5px; line-height: 60%\"><p style=\"margin-bottom: 0px\">Resource Patient &quot;DDCC-Patient-English&quot; </p><p style=\"margin-bottom: 0px\">Profile: <a href=\"StructureDefinition-DDCCPatient.html\">DDCC Patient</a></p></div><p><b>name</b>: Aulus Agerius(OFFICIAL)</p><p><b>birthDate</b>: 2003-03-03</p></div>"
      },
      "name" : [{
        "use" : "official",
        "text" : "Aulus Agerius"
      }],
      "birthDate" : "2003-03-03"
    }
  },
  {
    "fullUrl" : "http://www.example.org/fhir/Organization/DDCC-Organization-English",
    "resource" : {
      "resourceType" : "Organization",
      "id" : "DDCC-Organization-English",
      "meta" : {
        "profile" : ["http://smart.who.int/ddcc/StructureDefinition/DDCCOrganization"]
      },
      "text" : {
        "status" : "generated",
        "div" : "<div xmlns=\"http://www.w3.org/1999/xhtml\"><p><b>Generated Narrative: Organization</b><a name=\"DDCC-Organization-English\"> </a></p><div style=\"display: inline-block; background-color: #d9e0e7; padding: 6px; margin: 4px; border: 1px solid #8da1b4; border-radius: 5px; line-height: 60%\"><p style=\"margin-bottom: 0px\">Resource Organization &quot;DDCC-Organization-English&quot; </p><p style=\"margin-bottom: 0px\">Profile: <a href=\"StructureDefinition-DDCCOrganization.html\">DDCC Organization</a></p></div><p><b>name</b>: Government Hospital</p></div>"
      },
      "name" : "Government Hospital"
    }
  },
  {
    "fullUrl" : "http://www.example.org/fhir/Immunization/DDCC-Immunization-English",
    "resource" : {
      "resourceType" : "Immunization",
      "id" : "DDCC-Immunization-English",
      "meta" : {
        "profile" : ["http://smart.who.int/ddcc/StructureDefinition/DDCCImmunization"]
      },
      "text" : {
        "status" : "extensions",
        "div" : "<div xmlns=\"http://www.w3.org/1999/xhtml\"><p><b>Generated Narrative: Immunization</b><a name=\"DDCC-Immunization-English\"> </a></p><div style=\"display: inline-block; background-color: #d9e0e7; padding: 6px; margin: 4px; border: 1px solid #8da1b4; border-radius: 5px; line-height: 60%\"><p style=\"margin-bottom: 0px\">Resource Immunization &quot;DDCC-Immunization-English&quot; </p><p style=\"margin-bottom: 0px\">Profile: <a href=\"StructureDefinition-DDCCImmunization.html\">DDCC Immunization</a></p></div><p><b>DDCC Event Brand for Immunization</b>: COVID-19 Vaccine Moderna (Details: http://id.who.int/icd11/mms code XM3DT5 = 'COVID-19 Vaccine Moderna', stated as 'null')</p><p><b>DDCC Country Of Event for Immunization</b>: CHE</p><p><b>DDCC Vaccine Market Authorization for Immunization</b>: Test (Details: http://smart.who.int/ddcc/CodeSystem/DDCC-Example-Test-CodeSystem code TEST = 'Test', stated as 'null')</p><p><b>DDCC Vaccine Valid From</b>: 2021-05-30</p><p><b>status</b>: completed</p><p><b>vaccineCode</b>: COVID-19 vaccine, RNA based <span style=\"background: LightGoldenRodYellow; margin: 4px; border: 1px solid khaki\"> (<a href=\"CodeSystem-DDCC-ICD11-CodeSystem.html\">DDCC Codes for ICD11</a>#XM0GQ8)</span></p><p><b>patient</b>: <a href=\"#Patient_DDCC-Patient-English\">See above (Patient/DDCC-Patient-English)</a></p><p><b>occurrence</b>: 2021-05-06</p><p><b>location</b>: <span>: Vaccination Site</span></p><p><b>lotNumber</b>: 123</p><p><b>expirationDate</b>: 2021-06-30</p><h3>Performers</h3><table class=\"grid\"><tr><td style=\"display: none\">-</td><td><b>Actor</b></td></tr><tr><td style=\"display: none\">*</td><td><a href=\"#Organization_DDCC-Organization-English\">See above (Organization/DDCC-Organization-English)</a></td></tr></table><h3>ProtocolApplieds</h3><table class=\"grid\"><tr><td style=\"display: none\">-</td><td><b>Authority</b></td><td><b>TargetDisease</b></td><td><b>DoseNumber[x]</b></td><td><b>SeriesDoses[x]</b></td></tr><tr><td style=\"display: none\">*</td><td><a href=\"#Organization_DDCC-Organization-English\">See above (Organization/DDCC-Organization-English)</a></td><td>COVID-19 Disease <span style=\"background: LightGoldenRodYellow; margin: 4px; border: 1px solid khaki\"> (<a href=\"CodeSystem-DDCC-ICD11-CodeSystem.html\">DDCC Codes for ICD11</a>#RA01)</span></td><td>1</td><td>2</td></tr></table></div>"
      },
      "extension" : [{
        "url" : "http://smart.who.int/ddcc/StructureDefinition/DDCCEventBrand",
        "valueCoding" : {
          "system" : "http://id.who.int/icd11/mms",
          "code" : "XM3DT5"
        }
      },
      {
        "url" : "http://smart.who.int/ddcc/StructureDefinition/DDCCCountryOfEvent",
        "valueCode" : "CHE"
      },
      {
        "url" : "http://smart.who.int/ddcc/StructureDefinition/DDCCVaccineMarketAuthorization",
        "valueCoding" : {
          "system" : "http://smart.who.int/ddcc/CodeSystem/DDCC-Example-Test-CodeSystem",
          "code" : "TEST"
        }
      },
      {
        "url" : "http://smart.who.int/ddcc/StructureDefinition/DDCCVaccineValidFrom",
        "valueDate" : "2021-05-30"
      }],
      "status" : "completed",
      "vaccineCode" : {
        "coding" : [{
          "system" : "http://id.who.int/icd11/mms",
          "code" : "XM0GQ8"
        }]
      },
      "patient" : {
        "reference" : "Patient/DDCC-Patient-English"
      },
      "occurrenceDateTime" : "2021-05-06",
      "location" : {
        "display" : "Vaccination Site"
      },
      "lotNumber" : "123",
      "expirationDate" : "2021-06-30",
      "performer" : [{
        "actor" : {
          "reference" : "Organization/DDCC-Organization-English"
        }
      }],
      "protocolApplied" : [{
        "authority" : {
          "reference" : "Organization/DDCC-Organization-English"
        },
        "targetDisease" : [{
          "coding" : [{
            "system" : "http://id.who.int/icd11/mms",
            "code" : "RA01"
          }]
        }],
        "doseNumberPositiveInt" : 1,
        "seriesDosesPositiveInt" : 2
      }]
    }
  },
  {
    "fullUrl" : "http://www.example.org/fhir/ImmunizationRecommendation/DDCC-ImmunizationRecommendation-English",
    "resource" : {
      "resourceType" : "ImmunizationRecommendation",
      "id" : "DDCC-ImmunizationRecommendation-English",
      "meta" : {
        "profile" : ["http://smart.who.int/ddcc/StructureDefinition/DDCCImmunizationRecommendation"]
      },
      "text" : {
        "status" : "generated",
        "div" : "<div xmlns=\"http://www.w3.org/1999/xhtml\"><p><b>Generated Narrative: ImmunizationRecommendation</b><a name=\"DDCC-ImmunizationRecommendation-English\"> </a></p><div style=\"display: inline-block; background-color: #d9e0e7; padding: 6px; margin: 4px; border: 1px solid #8da1b4; border-radius: 5px; line-height: 60%\"><p style=\"margin-bottom: 0px\">Resource ImmunizationRecommendation &quot;DDCC-ImmunizationRecommendation-English&quot; </p><p style=\"margin-bottom: 0px\">Profile: <a href=\"StructureDefinition-DDCCImmunizationRecommendation.html\">DDCC Immunization Recommendation</a></p></div><p><b>patient</b>: <a href=\"#Patient_DDCC-Patient-English\">See above (Patient/DDCC-Patient-English)</a></p><p><b>date</b>: 2021-05-06</p><blockquote><p><b>recommendation</b></p><p><b>vaccineCode</b>: COVID-19 vaccine, RNA based <span style=\"background: LightGoldenRodYellow; margin: 4px; border: 1px solid khaki\"> (<a href=\"CodeSystem-DDCC-ICD11-CodeSystem.html\">DDCC Codes for ICD11</a>#XM0GQ8)</span></p><p><b>forecastStatus</b>: Due <span style=\"background: LightGoldenRodYellow; margin: 4px; border: 1px solid khaki\"> (<a href=\"http://terminology.hl7.org/4.0.0/CodeSystem-immunization-recommendation-status.html\">Immunization Recommendation Status Codes</a>#due)</span></p><h3>DateCriterions</h3><table class=\"grid\"><tr><td style=\"display: none\">-</td><td><b>Code</b></td><td><b>Value</b></td></tr><tr><td style=\"display: none\">*</td><td>30980-7 <span style=\"background: LightGoldenRodYellow; margin: 4px; border: 1px solid khaki\"> (<a href=\"https://loinc.org/\">LOINC</a>#30980-7)</span></td><td>2021-05-20</td></tr></table><p><b>supportingImmunization</b>: <a href=\"#Immunization_DDCC-Immunization-English\">See above (Immunization/DDCC-Immunization-English)</a></p></blockquote></div>"
      },
      "patient" : {
        "reference" : "Patient/DDCC-Patient-English"
      },
      "date" : "2021-05-06",
      "recommendation" : [{
        "vaccineCode" : [{
          "coding" : [{
            "system" : "http://id.who.int/icd11/mms",
            "code" : "XM0GQ8"
          }]
        }],
        "forecastStatus" : {
          "coding" : [{
            "system" : "http://terminology.hl7.org/CodeSystem/immunization-recommendation-status",
            "code" : "due"
          }]
        },
        "dateCriterion" : [{
          "code" : {
            "coding" : [{
              "system" : "http://loinc.org",
              "code" : "30980-7"
            }]
          },
          "value" : "2021-05-20"
        }],
        "supportingImmunization" : [{
          "reference" : "Immunization/DDCC-Immunization-English"
        }]
      }]
    }
  }]
}