{
  "resourceType" : "Bundle",
  "id" : "ExampleChinese",
  "meta" : {
    "profile" : ["http://smart.who.int/ddcc/StructureDefinition/DDCCVSDocument"]
  },
  "identifier" : {
    "system" : "urn:EXAMPLE-who-:ddcc:bundle:ids",
    "value" : "9990123012301230123"
  },
  "type" : "document",
  "timestamp" : "2021-06-03T13:28:17-05:00",
  "link" : [{
    "relation" : "publication",
    "url" : "urn:HCID:1234567890"
  }],
  "entry" : [{
    "fullUrl" : "http://www.example.org/fhir/Composition/DDCCCompositionExampleChinese",
    "resource" : {
      "resourceType" : "Composition",
      "id" : "DDCCCompositionExampleChinese",
      "meta" : {
        "profile" : ["http://smart.who.int/ddcc/StructureDefinition/DDCCVSComposition"]
      },
      "text" : {
        "status" : "generated",
        "div" : "<div xmlns=\"http://www.w3.org/1999/xhtml\"><a name=\"Composition_DDCCCompositionExampleChinese\"> </a><p class=\"res-header-id\"><b>Generated Narrative: Composition DDCCCompositionExampleChinese</b></p><a name=\"DDCCCompositionExampleChinese\"> </a><a name=\"hcDDCCCompositionExampleChinese\"> </a><a name=\"DDCCCompositionExampleChinese-en-US\"> </a><p><b>identifier</b>: <code>urn:EXAMPLE-who-:ddcc:composition:ids</code>/999123456123456123456\u00a0(use:\u00a0official,\u00a0)</p><p><b>status</b>: Final</p><p><b>type</b>: <span title=\"Codes:{http://loinc.org 82593-5}\">Immunization summary report</span></p><p><b>date</b>: 2020-05-06</p><p><b>author</b>: <a href=\"Organization-DDCCOrganizationChinese.html\">Organization 政府医院</a></p><p><b>title</b>: Digital Documentation of COVID-19 Certificate (DDCC)</p><h3>Attesters</h3><table class=\"grid\"><tr><td style=\"display: none\">-</td><td><b>Mode</b></td><td><b>Party</b></td></tr><tr><td style=\"display: none\">*</td><td>Official</td><td><a href=\"Organization-DDCCOrganizationChinese.html\">Organization 政府医院</a></td></tr></table></div>"
      },
      "identifier" : {
        "use" : "official",
        "system" : "urn:EXAMPLE-who-:ddcc:composition:ids",
        "value" : "999123456123456123456"
      },
      "status" : "final",
      "type" : {
        "coding" : [{
          "system" : "http://loinc.org",
          "code" : "82593-5"
        }]
      },
      "subject" : {
        "reference" : "Patient/DDCCPatientChinese"
      },
      "date" : "2020-05-06",
      "author" : [{
        "reference" : "Organization/DDCCOrganizationChinese"
      }],
      "title" : "Digital Documentation of COVID-19 Certificate (DDCC)",
      "attester" : [{
        "mode" : "official",
        "party" : {
          "reference" : "Organization/DDCCOrganizationChinese"
        }
      }],
      "section" : [{
        "code" : {
          "coding" : [{
            "system" : "http://loinc.org",
            "code" : "11369-6"
          }]
        },
        "focus" : {
          "reference" : "Immunization/DDCCImmunizationChinese"
        },
        "entry" : [{
          "reference" : "Immunization/DDCCImmunizationChinese"
        },
        {
          "reference" : "ImmunizationRecommendation/DDCCImmunizationRecommendationChinese"
        }]
      }]
    }
  },
  {
    "fullUrl" : "http://www.example.org/fhir/Patient/DDCCPatientChinese",
    "resource" : {
      "resourceType" : "Patient",
      "id" : "DDCCPatientChinese",
      "meta" : {
        "profile" : ["http://smart.who.int/ddcc/StructureDefinition/DDCCPatient"]
      },
      "text" : {
        "status" : "generated",
        "div" : "<div xmlns=\"http://www.w3.org/1999/xhtml\"><a name=\"Patient_DDCCPatientChinese\"> </a><p class=\"res-header-id\"><b>Generated Narrative: Patient DDCCPatientChinese</b></p><a name=\"DDCCPatientChinese\"> </a><a name=\"hcDDCCPatientChinese\"> </a><a name=\"DDCCPatientChinese-en-US\"> </a><p style=\"border: 1px #661aff solid; background-color: #e6e6ff; padding: 10px;\">奥卢斯·阿杰里乌斯(official) (no stated gender), DoB: 2003-03-03</p><hr/></div>"
      },
      "name" : [{
        "use" : "official",
        "text" : "奥卢斯·阿杰里乌斯"
      }],
      "birthDate" : "2003-03-03"
    }
  },
  {
    "fullUrl" : "http://www.example.org/fhir/Organization/DDCCOrganizationChinese",
    "resource" : {
      "resourceType" : "Organization",
      "id" : "DDCCOrganizationChinese",
      "meta" : {
        "profile" : ["http://smart.who.int/ddcc/StructureDefinition/DDCCOrganization"]
      },
      "text" : {
        "status" : "generated",
        "div" : "<div xmlns=\"http://www.w3.org/1999/xhtml\"><a name=\"Organization_DDCCOrganizationChinese\"> </a><p class=\"res-header-id\"><b>Generated Narrative: Organization DDCCOrganizationChinese</b></p><a name=\"DDCCOrganizationChinese\"> </a><a name=\"hcDDCCOrganizationChinese\"> </a><a name=\"DDCCOrganizationChinese-en-US\"> </a><p><b>name</b>: 政府医院</p></div>"
      },
      "name" : "政府医院"
    }
  },
  {
    "fullUrl" : "http://www.example.org/fhir/Immunization/DDCCImmunizationChinese",
    "resource" : {
      "resourceType" : "Immunization",
      "id" : "DDCCImmunizationChinese",
      "meta" : {
        "profile" : ["http://smart.who.int/ddcc/StructureDefinition/DDCCImmunization"]
      },
      "text" : {
        "status" : "extensions",
        "div" : "<div xmlns=\"http://www.w3.org/1999/xhtml\"><a name=\"Immunization_DDCCImmunizationChinese\"> </a><p class=\"res-header-id\"><b>Generated Narrative: Immunization DDCCImmunizationChinese</b></p><a name=\"DDCCImmunizationChinese\"> </a><a name=\"hcDDCCImmunizationChinese\"> </a><a name=\"DDCCImmunizationChinese-en-US\"> </a><p><b>DDCC Event Brand for Immunization</b>: mms XM6SZ8: XM6SZ8</p><p><b>DDCC Country Of Event for Immunization</b>: CHN</p><p><b>DDCC Vaccine Market Authorization for Immunization</b>: <a href=\"CodeSystem-DDCCExampleTestCodeSystem.html#DDCCExampleTestCodeSystem-TEST\">DDCC Codes for examples TEST</a>: Test</p><p><b>DDCC Vaccine Valid From</b>: 2021-05-30</p><p><b>status</b>: Completed</p><p><b>vaccineCode</b>: <span title=\"Codes:{http://id.who.int/icd11/mms XM5JC5}\">XM5JC5</span></p><p><b>patient</b>: <a href=\"Patient-DDCCPatientChinese.html\">奥卢斯·阿杰里乌斯(official) (no stated gender), DoB: 2003-03-03</a></p><p><b>occurrence</b>: 2021-05-06</p><p><b>location</b>: 疫苗接种现场</p><p><b>lotNumber</b>: 123</p><p><b>expirationDate</b>: 2021-06-30</p><h3>Performers</h3><table class=\"grid\"><tr><td style=\"display: none\">-</td><td><b>Actor</b></td></tr><tr><td style=\"display: none\">*</td><td><a href=\"Organization-DDCCOrganizationChinese.html\">Organization 政府医院</a></td></tr></table><h3>ProtocolApplieds</h3><table class=\"grid\"><tr><td style=\"display: none\">-</td><td><b>Authority</b></td><td><b>TargetDisease</b></td><td><b>DoseNumber[x]</b></td><td><b>SeriesDoses[x]</b></td></tr><tr><td style=\"display: none\">*</td><td><a href=\"Organization-DDCCOrganizationChinese.html\">Organization 政府医院</a></td><td><span title=\"Codes:{http://id.who.int/icd11/mms RA01}\">RA01</span></td><td>1</td><td>2</td></tr></table></div>"
      },
      "extension" : [{
        "url" : "http://smart.who.int/ddcc/StructureDefinition/DDCCEventBrand",
        "valueCoding" : {
          "system" : "http://id.who.int/icd11/mms",
          "code" : "XM6SZ8"
        }
      },
      {
        "url" : "http://smart.who.int/ddcc/StructureDefinition/DDCCCountryOfEvent",
        "valueCode" : "CHN"
      },
      {
        "url" : "http://smart.who.int/ddcc/StructureDefinition/DDCCVaccineMarketAuthorization",
        "valueCoding" : {
          "system" : "http://smart.who.int/ddcc/CodeSystem/DDCCExampleTestCodeSystem",
          "code" : "TEST"
        }
      },
      {
        "url" : "http://smart.who.int/ddcc/StructureDefinition/DDCCVaccineValidFrom",
        "valueDate" : "2021-05-30"
      }],
      "status" : "completed",
      "vaccineCode" : {
        "coding" : [{
          "system" : "http://id.who.int/icd11/mms",
          "code" : "XM5JC5"
        }]
      },
      "patient" : {
        "reference" : "Patient/DDCCPatientChinese"
      },
      "occurrenceDateTime" : "2021-05-06",
      "location" : {
        "display" : "疫苗接种现场"
      },
      "lotNumber" : "123",
      "expirationDate" : "2021-06-30",
      "performer" : [{
        "actor" : {
          "reference" : "Organization/DDCCOrganizationChinese"
        }
      }],
      "protocolApplied" : [{
        "authority" : {
          "reference" : "Organization/DDCCOrganizationChinese"
        },
        "targetDisease" : [{
          "coding" : [{
            "system" : "http://id.who.int/icd11/mms",
            "code" : "RA01"
          }]
        }],
        "doseNumberPositiveInt" : 1,
        "seriesDosesPositiveInt" : 2
      }]
    }
  },
  {
    "fullUrl" : "http://www.example.org/fhir/ImmunizationRecommendation/DDCCImmunizationRecommendationChinese",
    "resource" : {
      "resourceType" : "ImmunizationRecommendation",
      "id" : "DDCCImmunizationRecommendationChinese",
      "meta" : {
        "profile" : ["http://smart.who.int/ddcc/StructureDefinition/DDCCImmunizationRecommendation"]
      },
      "text" : {
        "status" : "generated",
        "div" : "<div xmlns=\"http://www.w3.org/1999/xhtml\"><a name=\"ImmunizationRecommendation_DDCCImmunizationRecommendationChinese\"> </a><p class=\"res-header-id\"><b>Generated Narrative: ImmunizationRecommendation DDCCImmunizationRecommendationChinese</b></p><a name=\"DDCCImmunizationRecommendationChinese\"> </a><a name=\"hcDDCCImmunizationRecommendationChinese\"> </a><a name=\"DDCCImmunizationRecommendationChinese-en-US\"> </a><p><b>patient</b>: <a href=\"Patient-DDCCPatientChinese.html\">奥卢斯·阿杰里乌斯(official) (no stated gender), DoB: 2003-03-03</a></p><p><b>date</b>: 2021-05-06</p><blockquote><p><b>recommendation</b></p><p><b>vaccineCode</b>: <span title=\"Codes:{http://id.who.int/icd11/mms XM5JC5}\">XM5JC5</span></p><p><b>forecastStatus</b>: <span title=\"Codes:{http://terminology.hl7.org/CodeSystem/immunization-recommendation-status due}\">Due</span></p><h3>DateCriterions</h3><table class=\"grid\"><tr><td style=\"display: none\">-</td><td><b>Code</b></td><td><b>Value</b></td></tr><tr><td style=\"display: none\">*</td><td><span title=\"Codes:{http://loinc.org 30980-7}\">Date vaccine due</span></td><td>2021-05-20</td></tr></table><p><b>supportingImmunization</b>: <a href=\"Immunization-DDCCImmunizationChinese.html\">Immunization: extension = XM6SZ8 (mms#XM6SZ8),CHN,Test (DDCC Codes for examples#TEST),2021-05-30; status = completed; vaccineCode = XM5JC5; occurrence[x] = 2021-05-06; lotNumber = 123; expirationDate = 2021-06-30</a></p></blockquote></div>"
      },
      "patient" : {
        "reference" : "Patient/DDCCPatientChinese"
      },
      "date" : "2021-05-06",
      "recommendation" : [{
        "vaccineCode" : [{
          "coding" : [{
            "system" : "http://id.who.int/icd11/mms",
            "code" : "XM5JC5"
          }]
        }],
        "forecastStatus" : {
          "coding" : [{
            "system" : "http://terminology.hl7.org/CodeSystem/immunization-recommendation-status",
            "code" : "due"
          }]
        },
        "dateCriterion" : [{
          "code" : {
            "coding" : [{
              "system" : "http://loinc.org",
              "code" : "30980-7"
            }]
          },
          "value" : "2021-05-20"
        }],
        "supportingImmunization" : [{
          "reference" : "Immunization/DDCCImmunizationChinese"
        }]
      }]
    }
  }]
}